Folder: Aprendizado-de-M-quina/Tarefas/Dados 3

File: Cu_alloys_database_2023_06_06.csv
Alloy formula;Alloy class;Cu;Al;Ag;B;Be;Ca;Co;Ce;Cr;Fe;Hf;La;Mg;Mn;Mo;Nb;Nd;Ni;P;Pb;Pr;Si;Sn;Ti;V;Zn;Zr;Tss (K);tss (h);CR reduction (%);Aging;Tag (K);tag (h);Secondary thermo-mechanical process;Hardness (HV);Yield strength (MPa);Ultimate tensile strength (MPa);Electrical conductivity (%IACS)
Cu-0.1Ag–0.3Cr;Cu low alloyed;99.6;0;0.1;0;0;0;0;0;0.3;0;0;0;0;0;0;0;0;0;0;0;0;0;0;0;0;0;0;1223;1;0;N;;;N;85;;;45
Cu-0.1Cr-0.06Zr;Cu low alloyed;99.84;0;0;0;0;0;0;0;0.1;0;0;0;0;0;0;0;0;0;0;0;0;0;0;0;0;0;0.06;1273;1;0;Y;473;1;N;78;;;59
Cu-1Cr-0.1Zr;Cu low alloyed;98.9;0;0;0;0;0;0;0;1;0;0;0;0;0;0;0;0;0;0;0;0;0;0;0;0;0;0.1;1273;1;0;Y;673;1;N;92;;;42
Cu-0.5Zr-0.065B;Cu low alloyed;99.435;0;0;0.065;0;0;0;0;0;0;0;0;0;0;0;0;0;0;0;0;0;0;0;0;0;0;0.5;1208;1;80;Y;633;10;N;;;507;79
Cu-0.5Zr-0.065B;Cu low alloyed;99.435;0;0;0.065;0;0;0;0;0;0;0;0;0;0;0;0;0;0;0;0;0;0;0;0;0;0;0.5;1208;1;80;Y;743;2;Y;;470;551;81
Cu-0.42Cr-0.18Zr;Cu low alloyed;99.4;0;0;0;0;0;0;0;0.42;0;0;0;0;0;0;0;0;0;0;0;0;0;0;0;0;0;0.18;;;80;Y;823;1;N;144;;;87
Cu-0.42Cr-0.18Zr;Cu low alloyed;99.4;0;0;0;0;0;0;0;0.42;0;0;0;0;0;0;0;0;0;0;0;0;0;0;0;0;0;0.18;;;80;Y;723;0.5;N;176;;;82
Cu-0.7Cr-2.0Fe;Cu low alloyed;97.52;0;0;0;0;0;0;0;0.63;1.85;0;0;0;0;0;0;0;0;0;0;0;0;0;0;0;0;0;1323;2;40;N;;;N;;;350;26
Cu-1Fe;Cu low alloyed;99;0;0;0;0;0;0;0;0.05;0.95;0;0;0;0;0;0;0;0;0;0;0;0;0;0;0;0;0;1323;2;40;Y;923;6;N;;;255;48
Cu-0.28Cr-0.19Mg;Cu low alloyed;99.53;0;0;0;0;0;0;0;0.28;0;0;0;0.19;0;0;0;0;0;0;0;0;0;0;0;0;0;0;1223;4;0;Y;693;0.25;N;69;;;49
Cu-0.28Cr-0.19Mg;Cu low alloyed;99.53;0;0;0;0;0;0;0;0.28;0;0;0;0.19;0;0;0;0;0;0;0;0;0;0;0;0;0;0;1223;4;0;Y;753;0.0833;N;73;;;48
Cu-1.3Ni-1.4Co-0.56Si-0.03Mg;Cu-Ni-Si alloys;86.04;0;0;0;0;0;1.4;0;0;0;0;0;0.04;0;0;0;0;0.9;0.05;0;0;0.55;0;0;0;0;0;1248;2;0;Y;823;3;N;169;;;38
Cu-6Ni-1.5Si;Cu-Ni-Si alloys;92.62;0;0;0;0;0;0;0;0;0;0;0;0;0;0;0;0;5.94;0;0;0;1.44;0;0;0;0;0;1253;2;0;Y;773;0.5;N;282;;;28
Cu-2.1Ni–0.5Si–0.2Zr;Cu-Ni-Si alloys;97.18;0;0;0;0;0;0;0;0;0;0;0;0;0;0;0;0;2.11;0;0;0;0.53;0;0;0;0;0.18;1193;1.5;70;Y;673;8;N;;;637;37
Cu-6Ni-1.4Si-0.15Mg-0.1Cr;Cu-Ni-Si alloys;92.35;0;0;0;0;0;0;0;0.1;0;0;0;0.15;0;0;0;0;6;0;0;0;1.4;0;0;0;0;0;1243;4;0;Y;673;3;N;289;;;31
Cu-6Ni-1.4Si-0.15Mg-0.1Cr;Cu-Ni-Si alloys;92.35;0;0;0;0;0;0;0;0.1;0;0;0;0.15;0;0;0;0;6;0;0;0;1.4;0;0;0;0;0;1243;4;0;Y;723;15;N;291;;;38
Cu-6Ni-1.4Si-0.15Mg-0.1Cr;Cu-Ni-Si alloys;92.35;0;0;0;0;0;0;0;0.1;0;0;0;0.15;0;0;0;0;6;0;0;0;1.4;0;0;0;0;0;1243;4;50;Y;723;1;N;338;950;1040;29
Cu-6Ni-1.4Si-0.15Mg-0.1Cr;Cu-Ni-Si alloys;92.35;0;0;0;0;0;0;0;0.1;0;0;0;0.15;0;0;0;0;6;0;0;0;1.4;0;0;0;0;0;1243;4;80;Y;723;4;N;303;;;40
Cu-6Ni-1.0Si-0.5Al-0.15Mg-0.1Cr;Cu-Ni-Si alloys;92.25;0.5;0;0;0;0;0;0;0.1;0;0;0;0.15;0;0;0;0;6;0;0;0;1;0;0;0;0;0;1243;4;0;Y;673;18;N;301;;;31
Cu-6Ni-1.0Si-0.5Al-0.15Mg-0.1Cr;Cu-Ni-Si alloys;92.25;0.5;0;0;0;0;0;0;0.1;0;0;0;0.15;0;0;0;0;6;0;0;0;1;0;0;0;0;0;1243;4;0;Y;773;10;N;279;;;35
Cu-6Ni-1.0Si-0.5Al-0.15Mg-0.1Cr;Cu-Ni-Si alloys;92.25;0.5;0;0;0;0;0;0;0.1;0;0;0;0.15;0;0;0;0;6;0;0;0;1;0;0;0;0;0;1243;4;50;Y;723;27;N;285;;;34
Cu-6Ni-1Si-0.5Al-0.15Mg-0.1Cr;Cu-Ni-Si alloys;92.25;0.5;0;0;0;0;0;0;0.1;0;0;0;0.15;0;0;0;0;6;0;0;0;1;0;0;0;0;0;1243;6;50;Y;723;2;N;338;;;27
Cu-6Ni-1Si-0.5Al;Cu-Ni-Si alloys;92.25;0.5;0;0;0;0;0;0;0.1;0;0;0;0.15;0;0;0;0;6;0;0;0;1;0;0;0;0;0;1253;4;60;Y;723;2;Y;343;;;29
Cu-6Ni-1Si-0.5Al;Cu-Ni-Si alloys;92.25;0.5;0;0;0;0;0;0;0.1;0;0;0;0.15;0;0;0;0;6;0;0;0;1;0;0;0;0;0;1253;4;80;Y;723;0.5;Y;373;;;27
Cu-6Ni-1Si-0.5Al;Cu-Ni-Si alloys;92.25;0.5;0;0;0;0;0;0;0.1;0;0;0;0.15;0;0;0;0;6;0;0;0;1;0;0;0;0;0;1253;4;0;Y;723;0.083;N;227;;;27
Cu-6Ni-1Si-0.5Al;Cu-Ni-Si alloys;92.25;0.5;0;0;0;0;0;0;0.1;0;0;0;0.15;0;0;0;0;6;0;0;0;1;0;0;0;0;0;1253;4;50;N;;;Y;251;;;30
Cu-6Ni-1Si-0.5Al;Cu-Ni-Si alloys;92.25;0.5;0;0;0;0;0;0;0.1;0;0;0;0.15;0;0;0;0;6;0;0;0;1;0;0;0;0;0;1253;4;50;Y;723;8;Y;148;;;61
Cu-6Ni-1Si-0.5Al;Cu-Ni-Si alloys;92.25;0.5;0;0;0;0;0;0;0.1;0;0;0;0.15;0;0;0;0;6;0;0;0;1;0;0;0;0;0;1253;4;50;Y;823;8;Y;130;;;50
Cu-6Ni-1Si-0.5Al;Cu-Ni-Si alloys;92.25;0.5;0;0;0;0;0;0;0.1;0;0;0;0.15;0;0;0;0;6;0;0;0;1;0;0;0;0;0;1253;4;50;Y;723;6;Y;150;;;61
Cu-6Ni-1Si-0.5Al;Cu-Ni-Si alloys;92.25;0.5;0;0;0;0;0;0;0.1;0;0;0;0.15;0;0;0;0;6;0;0;0;1;0;0;0;0;0;1253;4;50;Y;823;6;Y;131;;;51
Cu-6Ni-1Si-0.5Al;Cu-Ni-Si alloys;92.25;0.5;0;0;0;0;0;0;0.1;0;0;0;0.15;0;0;0;0;6;0;0;0;1;0;0;0;0;0;1253;4;50;Y;723;5;Y;154;;;62
Cu-6Ni-1Si-0.5Al;Cu-Ni-Si alloys;92.25;0.5;0;0;0;0;0;0;0.1;0;0;0;0.15;0;0;0;0;6;0;0;0;1;0;0;0;0;0;1253;4;50;Y;823;5;Y;127;;;49
Cu-6Ni-1Si-0.5Al;Cu-Ni-Si alloys;92.25;0.5;0;0;0;0;0;0;0.1;0;0;0;0.15;0;0;0;0;6;0;0;0;1;0;0;0;0;0;1253;4;50;Y;723;4;Y;284;;;34
Cu-6Ni-1Si-0.5Al;Cu-Ni-Si alloys;92.25;0.5;0;0;0;0;0;0;0.1;0;0;0;0.15;0;0;0;0;6;0;0;0;1;0;0;0;0;0;1253;4;50;Y;823;4;Y;169;;;37
Cu-6Ni-1Si-0.5Al;Cu-Ni-Si alloys;92.25;0.5;0;0;0;0;0;0;0.1;0;0;0;0.15;0;0;0;0;6;0;0;0;1;0;0;0;0;0;1253;4;50;Y;723;3;Y;272;;;38
Cu-6Ni-1Si-0.5Al;Cu-Ni-Si alloys;92.25;0.5;0;0;0;0;0;0;0.1;0;0;0;0.15;0;0;0;0;6;0;0;0;1;0;0;0;0;0;1253;4;50;Y;823;3;Y;173;;;38
Cu-6Ni-1Si-0.5Al;Cu-Ni-Si alloys;92.25;0.5;0;0;0;0;0;0;0.1;0;0;0;0.15;0;0;0;0;6;0;0;0;1;0;0;0;0;0;1253;4;50;Y;723;2;Y;272;;;38
Cu-6Ni-1Si-0.5Al;Cu-Ni-Si alloys;92.25;0.5;0;0;0;0;0;0;0.1;0;0;0;0.15;0;0;0;0;6;0;0;0;1;0;0;0;0;0;1253;4;50;Y;823;2;Y;181;;;38
Cu-3.2Ni-0.73Si;Cu-Ni-Si alloys;95.935;0;0;0;0;0;0;0;0;0;0;0;0;0;0;0;0;3.3;0;0;0;0.765;0;0;0;0;0;1173;1;0;Y;773;4;N;219;;;39
Cu-3.2Ni-0.40Si;Cu-Ni-Si alloys;96.295;0;0;0;0;0;0;0;0;0;0;0;0;0;0;0;0;3.3;0;0;0;0.405;0;0;0;0;0;1173;1;0;Y;773;2;N;155;;;35
Cu-3.2Ni-0.40Si;Cu-Ni-Si alloys;95.935;0;0;0;0;0;0;0;0;0;0;0;0;0;0;0;0;3.3;0;0;0;0.765;0;0;0;0;0;1173;1;0;Y;773;4;N;227;;;41
Cu-3.2Ni-0.40Si;Cu-Ni-Si alloys;95.935;0;0;0;0;0;0;0;0;0;0;0;0;0;0;0;0;3.3;0;0;0;0.765;0;0;0;0;0;1173;1;60;Y;723;0.25;N;246;;;29
Cu-3.2Ni-0.40Si;Cu-Ni-Si alloys;95.935;0;0;0;0;0;0;0;0;0;0;0;0;0;0;0;0;3.3;0;0;0;0.765;0;0;0;0;0;1173;1;45;Y;623;12;Y;246;;;43
Cu-3.48Ni-0.82Co;Cu-Ni-Si alloys;95.7;0;0;0;0;0;0;0;0;0;0;0;0;0;0;0;0;3.48;0;0;0;0.82;0;0;0;0;0;1173;1;0;Y;773;0.5;N;214;;;35
Cu-6Ni-1Si-0.5Al-0.15Mg-0.1Cr;Cu-Ni-Si alloys;92.27;0.49;0;0;0;0;0;0;0.11;0;0;0;0.12;0;0;0;0;5.98;0;0;0;1.03;0;0;0;0;0;1243;6;50;Y;673;1;N;321;;;23
Cu-6Ni-1Si-0.5Al-0.15Mg-0.1Cr;Cu-Ni-Si alloys;92.27;0.49;0;0;0;0;0;0;0.11;0;0;0;0.12;0;0;0;0;5.98;0;0;0;1.03;0;0;0;0;0;1243;6;50;Y;773;0.5;N;338;;;29
Cu-6Ni-1Si-0.5Al-0.15Mg-0.1Cr;Cu-Ni-Si alloys;92.27;0.49;0;0;0;0;0;0;0.11;0;0;0;0.12;0;0;0;0;5.98;0;0;0;1.03;0;0;0;0;0;1243;6;50;Y;823;20;N;176;;;40
Cu-6Ni-1Si-0.5Al-0.15Mg-0.1Cr;Cu-Ni-Si alloys;92.27;0.49;0;0;0;0;0;0;0.11;0;0;0;0.12;0;0;0;0;5.98;0;0;0;1.03;0;0;0;0;0;1243;6;50;Y;923;12;N;125;;;40
Cu-6Ni-1Si-0.5Al-0.15Mg-0.1Cr;Cu-Ni-Si alloys;92.27;0.49;0;0;0;0;0;0;0.11;0;0;0;0.12;0;0;0;0;5.98;0;0;0;1.03;0;0;0;0;0;1243;6;50;Y;1023;6;N;125;;;40
Cu-4.5Ni-1Si-1.2Co-0.15Mg;Cu-Ni-Si alloys;93.15;0;0;0;0;0;1.2;0;0;0;0;0;0.15;0;0;0;0;4.5;0;0;0;1;0;0;0;0;0;1253;4;0;Y;723;16;N;244;;;33
Cu-4.5Ni-1Si-1.2Co-0.15Mg;Cu-Ni-Si alloys;93.15;0;0;0;0;0;1.2;0;0;0;0;0;0.15;0;0;0;0;4.5;0;0;0;1;0;0;0;0;0;1253;4;70;Y;753;0.25;N;298;;;24
Cu-4.5Ni-1Si-1.2Co-0.15Mg;Cu-Ni-Si alloys;93.15;0;0;0;0;0;1.2;0;0;0;0;0;0.15;0;0;0;0;4.5;0;0;0;1;0;0;0;0;0;1253;4;70;Y;703;0.75;N;320;;;31
Cu-3.52Ni-0.94Si-0.35Cr;Cu-Ni-Si alloys;95.19;0;0;0;0;0;0;0;0.35;0;0;0;0;0;0;0;0;3.52;0;0;0;0.94;0;0;0;0;0;1223;1;0;Y;723;8;N;177;;;37
Cu-4.1Ni-1Si;Cu-Ni-Si alloys;94.93;0;0;0;0;0;0;0;0;0;0;0;0;0;0;0;0;4.1;0;0;0;0.97;0;0;0;0;0;1173;3;0;Y;723;2;N;237;;;29
Cu-2Ni-0.5Si;Cu-Ni-Si alloys;97.56;0;0;0;0;0;0;0;0;0;0;0;0;0;0;0;0;1.92;0;0;0;0.52;0;0;0;0;0;1233;1;60;Y;773;1.5;N;221;;;44
Cu-2Ni-0.5Si-0.15Zr;Cu-Ni-Si alloys;97.5;0;0;0;0;0;0;0;0;0;0;0;0;0;0;0;0;1.87;0;0;0;0.47;0;0;0;0;0.16;1233;1;50;Y;648;8;Y;168;;587;48
Cu-2Ni-0.5Si-0.3Cr;Cu-Ni-Si alloys;97.29;0;0;0;0;0;0;0;0.4;0;0;0;0;0;0;0;0;1.83;0;0;0;0.49;0;0;0;0;0;1233;1;60;Y;748;1;N;224;;;42
Cu-4Ni-1Si-0.02P;Cu-Ni-Si alloys;95.03;0;0;0;0;0;0;0;0;0;0;0;0;0;0;0;0;4;0.02;0;0;0.95;0;0;0;0;0;1273;4;0;Y;723;5;Y;;631;740;36
Cu-1.91Ni-0.47Si-0.035P;Cu-Ni-Si alloys;97.585;0;0;0;0;0;0;0;0;0;0;0;0;0;0;0;0;1.91;0.035;0;0;0.47;0;0;0;0;0;1223;1;0;Y;773;2;N;;224;;31
Cu-1.91Ni-0.47Si-0.035P;Cu-Ni-Si alloys;97.585;0;0;0;0;0;0;0;0;0;0;0;0;0;0;0;0;1.91;0.035;0;0;0.47;0;0;0;0;0;1223;1;80;N;;;N;;173;;21
Cu-2.8Ni-0.6Si;Cu-Ni-Si alloys;96.6;0;0;0;0;0;0;0;0;0;0;0;0;0;0;0;0;2.8;0;0;0;0.6;0;0;0;0;0;1173;1.5;0;Y;773;8;N;199;;;45
Cu-1.4Ni-1.2Co-0.6Si;Cu-Ni-Si alloys;96.8;0;0;0;0;0;1.2;0;0;0;0;0;0;0;0;0;0;1.4;0;0;0;0.6;0;0;0;0;0;1173;1.5;0;Y;723;4;N;235;;;50
Cu-1.5Ni-0.3Si-0.03P-0.05Mg;Cu-Ni-Si alloys;98.12;0;0;0;0;0;0;0;0;0;0;0;0.05;0;0;0;0;1.5;0.03;0;0;0.3;0;0;0;0;0;973;4;85;Y;723;2;N;174;;;86
Cu-4.0Ni-4.0Si;Cu-Ni-Si alloys;94.402;0;0;0;0;0;0;0;0;0;0;0;0;0;0;0;0;3.77;0;0;0;1.83;0;0;0;0;0;1223;1;0;Y;773;0.333333;N;218;;;16
Cu-4.0Ni-2.0Si;Cu-Ni-Si alloys;95.339;0;0;0;0;0;0;0;0;0;0;0;0;0;0;0;0;3.77;0;0;0;0.89;0;0;0;0;0;1223;1;0;Y;773;0.0333333;N;203;;;32
Cu-1.5Ni-0.6Si;Cu-Ni-Si alloys;97.24;0;0;0;0;0;0;0;0;0;0;0;0;0;0;0;0;2.31;0;0;0;0.45;0;0;0;0;0;1223;1;0;Y;773;4;N;178;;;45
Cu-2.5Ni-0.8Si;Cu-Ni-Si alloys;93.886;0;0;0;0;0;0;0;0;0;0;0;0;0;0;0;0;2.3;0;0;0;3.81;0;0;0;0;0;1223;1;0;Y;773;0.333333;N;158;;;39
Cu-2.8Ni-0.7Si;Cu-Ni-Si alloys;96.5;0;0;0;0;0;0;0;0;0;0;0;0;0;0;0;0;2.8;0;0;0;0.7;0;0;0;0;0;1223;2;75;Y;723;1;Y;102;;;28
Cu-2.8Ni-0.7Si-0.086V;Cu-Ni-Si alloys;96.414;0;0;0;0;0;0;0;0;0;0;0;0;0;0;0;0;2.8;0;0;0;0.7;0;0;0.09;0;0;1223;2;75;Y;723;40;Y;172;;;39
Cu-2.8Ni-0.7Si-0.17V;Cu-Ni-Si alloys;96.33;0;0;0;0;0;0;0;0;0;0;0;0;0;0;0;0;2.8;0;0;0;0.7;0;0;0.17;0;0;1223;2;75;Y;773;20;Y;183;;;44
Cu-3.2Ni-0.7Si-0.3Zn;Cu-Ni-Si alloys;95.8;0;0;0;0;0;0;0;0;0;0;0;0;0;0;0;0;3.2;0;0;0;0.7;0;0;0;0.3;0;1173;2;0;Y;773;2;N;191;;;49
Cu-3.2Ti;Cu-Ti alloys;96.8;0;0;0;0;0;0;0;0;0;0;0;0;0;0;0;0;0;0;0;0;0;0;3.2;0;0;0;1223;0.25;30;Y;653;3;N;;;871;7
Cu-2.7Ti-0.15Mg-0.1Ce-0.1Zr;Cu-Ti alloys;96.95;0;0;0;0;0;0;0.1;0;0;0;0;0.15;0;0;0;0;0;0;0;0;0;0;2.7;0;0;0.1;1123;2;90;Y;673;16;N;297;;;21
Cu-5.4Ti;Cu-Ti alloys;94.6;0;0;0;0;0;0;0;0;0;0;0;0;0;0;0;0;0;0;0;0;0;0;5.4;0;0;0;1173;2;0;Y;723;16;N;366;790;930;11
Cu-3Ti-2Mg;Cu-Ti alloys;95;0;0;0;0;0;0;0;0;0;0;0;2;0;0;0;0;0;0;0;0;0;0;3;0;0;0;1023;4;70;Y;723;1;N;341;;250;17
Cu-1.7Be;Cu-Be alloys;92.57;0.13;0;0;1.66;0;0;0;0;0;0;0;2;0;0;0;0;0.33;0;0;0;0.31;0;3;0;0;0;1053;0.17;0;Y;573;16;N;401;;;23
Cu-2Be;Cu-Be alloys;92.57;0.13;0;0;1.66;0;0;0;0;0;0;0;2;0;0;0;0;0.33;0;0;0;0.31;0;3;0;0;0;1053;0.17;0;Y;648;16;N;269;;;31
Cu-2Be;Cu-Be alloys;98;0;0;0;2;0;0;0;0;0;0;0;0;0;0;0;0;0;0;0;0;0;0;0;0;0;0;1073;;0;Y;593;16;N;;1070;1225;24